{
  "resourceType": "Bundle",
  "type": "transaction",
  "entry": [
    {
      "fullUrl": "urn:uuid:98d96608-475f-4386-b7b5-6ddc1eb57e71",
      "resource": {
        "resourceType": "ResearchStudy",
        "identifier": [
          {
            "system": "https://miracum.github.io/recruit/fhir/identifiers/trino-sql-criteria-researchstudy-id",
            "value": "diabetes"
          }
        ],
        "status": "active",
        "title": "Diabetes Study",
        "enrollment": [
          {
            "reference": "urn:uuid:be24c1a6-b052-4360-871b-0a1b7b6bdfb4"
          }
        ]
      },
      "request": {
        "method": "PUT",
        "url": "ResearchStudy?identifier=https://miracum.github.io/recruit/fhir/identifiers/trino-sql-criteria-researchstudy-id|diabetes"
      }
    },
    {
      "fullUrl": "urn:uuid:be24c1a6-b052-4360-871b-0a1b7b6bdfb4",
      "resource": {
        "resourceType": "Group",
        "identifier": [
          {
            "system": "https://miracum.github.io/recruit/fhir/identifiers/trino-sql-criteria-group-id",
            "value": "diabetes"
          }
        ],
        "actual": false,
        "type": "person",
        "active": true,
        "code": {
          "coding": [
            {
              "system": "https://miracum.github.io/recruit/fhir/CodeSystem/eligibility-criteria-types",
              "code": "trino-sql-encoded-eligibility-criteria"
            }
          ],
          "text": "Trino SQL-encoded eligibility criteria"
        },
        "characteristic": [
          {
            "valueReference": {
              "reference": "urn:uuid:bb4e037a-0a43-4fee-befc-b9ed598c3e64"
            },
            "code": {
              "coding": [
                {
                  "system": "https://miracum.github.io/recruit/fhir/CodeSystem/eligibility-criteria-types",
                  "code": "trino-sql-encoded-eligibility-criteria"
                }
              ],
              "text": "Trino SQL-encoded eligibility criteria"
            },
            "exclude": false
          }
        ]
      },
      "request": {
        "method": "PUT",
        "url": "Group?identifier=https://miracum.github.io/recruit/fhir/identifiers/trino-sql-criteria-group-id|diabetes"
      }
    },
    {
      "fullUrl": "urn:uuid:bb4e037a-0a43-4fee-befc-b9ed598c3e64",
      "resource": {
        "resourceType": "Library",
        "identifier": [
          {
            "system": "https://miracum.github.io/recruit/fhir/identifiers/trino-sql-criteria-library-id",
            "value": "diabetes"
          }
        ],
        "status": "active",
        "type": {
          "coding": [
            {
              "code": "logic-library"
            }
          ]
        },
        "content": [
          {
            "contentType": "text/x-trino",
            "data": ""
          }
        ]
      },
      "request": {
        "method": "PUT",
        "url": "Library?identifier=https://miracum.github.io/recruit/fhir/identifiers/trino-sql-criteria-library-id|diabetes"
      }
    }
  ]
}
