{
  "resourceType": "Bundle",
  "type": "transaction",
  "entry": [ {
    "fullUrl": "urn:uuid:guid_1",
    "resource": {
      "resourceType": "Device",
      "identifier": [ {
        "system": "https://fhir.miracum.org/uc1/identifiers/recruit-module-id",
        "value": "query-null"
      } ],
      "status": "active",
      "manufacturer": "miracum.org",
      "deviceName": [ {
        "name": "query",
        "type": "manufacturer-name"
      }, {
        "name": "recruIT Query Module",
        "type": "user-friendly-name"
      } ]
    },
    "request": {
      "method": "POST",
      "url": "Device",
      "ifNoneExist": "identifier=https://fhir.miracum.org/uc1/identifiers/recruit-module-id|query-null"
    }
  }, {
    "fullUrl": "urn:uuid:guid_2",
    "resource": {
      "resourceType": "ResearchStudy",
      "meta": {
        "source": "https://fhir.miracum.org/uc1/recruit/generatedByQueryModule"
      },
      "extension": [ {
        "url": "https://fhir.miracum.org/uc1/StructureDefinition/studyAcronym",
        "valueString": "Testcohort"
      } ],
      "identifier": [ {
        "system": "http://ohdsi.org/omop/fhir/cohort-identifier",
        "value": "1"
      } ],
      "title": "Testcohort",
      "status": "active"
    },
    "request": {
      "method": "PUT",
      "url": "ResearchStudy?identifier=http://ohdsi.org/omop/fhir/cohort-identifier|1"
    }
  }, {
    "fullUrl": "urn:uuid:guid_3",
    "resource": {
      "resourceType": "Patient",
      "identifier": [ {
        "system": "http://ohdsi.org/omop/fhir/subject-identifier",
        "value": "1"
      } ],
      "gender": "female",
      "birthDate": "1900-02-01"
    },
    "request": {
      "method": "PUT",
      "url": "Patient?identifier=http://ohdsi.org/omop/fhir/subject-identifier|1"
    }
  }, {
    "fullUrl": "urn:uuid:guid_4",
    "resource": {
      "resourceType": "ResearchSubject",
      "status": "candidate",
      "study": {
        "reference": "urn:uuid:guid_2",
        "identifier": {
          "system": "http://ohdsi.org/omop/fhir/cohort-identifier",
          "value": "1"
        }
      },
      "individual": {
        "reference": "urn:uuid:guid_3",
        "identifier": {
          "system": "http://ohdsi.org/omop/fhir/subject-identifier",
          "value": "1"
        }
      }
    },
    "request": {
      "method": "POST",
      "url": "ResearchSubject",
      "ifNoneExist": "ResearchSubject?patient.identifier=http://ohdsi.org/omop/fhir/subject-identifier|1&study.identifier=http://ohdsi.org/omop/fhir/cohort-identifier|1"
    }
  }, {
    "fullUrl": "urn:uuid:guid_5",
    "resource": {
      "resourceType": "Patient",
      "identifier": [ {
        "system": "http://ohdsi.org/omop/fhir/subject-identifier",
        "value": "2"
      } ],
      "gender": "female",
      "birthDate": "1901-02-01"
    },
    "request": {
      "method": "PUT",
      "url": "Patient?identifier=http://ohdsi.org/omop/fhir/subject-identifier|2"
    }
  }, {
    "fullUrl": "urn:uuid:guid_6",
    "resource": {
      "resourceType": "ResearchSubject",
      "status": "candidate",
      "study": {
        "reference": "urn:uuid:guid_2",
        "identifier": {
          "system": "http://ohdsi.org/omop/fhir/cohort-identifier",
          "value": "1"
        }
      },
      "individual": {
        "reference": "urn:uuid:guid_5",
        "identifier": {
          "system": "http://ohdsi.org/omop/fhir/subject-identifier",
          "value": "2"
        }
      }
    },
    "request": {
      "method": "POST",
      "url": "ResearchSubject",
      "ifNoneExist": "ResearchSubject?patient.identifier=http://ohdsi.org/omop/fhir/subject-identifier|2&study.identifier=http://ohdsi.org/omop/fhir/cohort-identifier|1"
    }
  }, {
    "fullUrl": "urn:uuid:guid_7",
    "resource": {
      "resourceType": "Patient",
      "identifier": [ {
        "system": "http://ohdsi.org/omop/fhir/subject-identifier",
        "value": "3"
      } ],
      "gender": "female",
      "birthDate": "1902-02-01"
    },
    "request": {
      "method": "PUT",
      "url": "Patient?identifier=http://ohdsi.org/omop/fhir/subject-identifier|3"
    }
  }, {
    "fullUrl": "urn:uuid:guid_8",
    "resource": {
      "resourceType": "ResearchSubject",
      "status": "candidate",
      "study": {
        "reference": "urn:uuid:guid_2",
        "identifier": {
          "system": "http://ohdsi.org/omop/fhir/cohort-identifier",
          "value": "1"
        }
      },
      "individual": {
        "reference": "urn:uuid:guid_7",
        "identifier": {
          "system": "http://ohdsi.org/omop/fhir/subject-identifier",
          "value": "3"
        }
      }
    },
    "request": {
      "method": "POST",
      "url": "ResearchSubject",
      "ifNoneExist": "ResearchSubject?patient.identifier=http://ohdsi.org/omop/fhir/subject-identifier|3&study.identifier=http://ohdsi.org/omop/fhir/cohort-identifier|1"
    }
  }, {
    "fullUrl": "urn:uuid:guid_9",
    "resource": {
      "resourceType": "Patient",
      "identifier": [ {
        "system": "http://ohdsi.org/omop/fhir/subject-identifier",
        "value": "4"
      } ],
      "gender": "female",
      "birthDate": "1903-02-01"
    },
    "request": {
      "method": "PUT",
      "url": "Patient?identifier=http://ohdsi.org/omop/fhir/subject-identifier|4"
    }
  }, {
    "fullUrl": "urn:uuid:guid_10",
    "resource": {
      "resourceType": "ResearchSubject",
      "status": "candidate",
      "study": {
        "reference": "urn:uuid:guid_2",
        "identifier": {
          "system": "http://ohdsi.org/omop/fhir/cohort-identifier",
          "value": "1"
        }
      },
      "individual": {
        "reference": "urn:uuid:guid_9",
        "identifier": {
          "system": "http://ohdsi.org/omop/fhir/subject-identifier",
          "value": "4"
        }
      }
    },
    "request": {
      "method": "POST",
      "url": "ResearchSubject",
      "ifNoneExist": "ResearchSubject?patient.identifier=http://ohdsi.org/omop/fhir/subject-identifier|4&study.identifier=http://ohdsi.org/omop/fhir/cohort-identifier|1"
    }
  }, {
    "fullUrl": "urn:uuid:guid_11",
    "resource": {
      "resourceType": "Patient",
      "identifier": [ {
        "system": "http://ohdsi.org/omop/fhir/subject-identifier",
        "value": "5"
      } ],
      "gender": "female",
      "birthDate": "1904-02-01"
    },
    "request": {
      "method": "PUT",
      "url": "Patient?identifier=http://ohdsi.org/omop/fhir/subject-identifier|5"
    }
  }, {
    "fullUrl": "urn:uuid:guid_12",
    "resource": {
      "resourceType": "ResearchSubject",
      "status": "candidate",
      "study": {
        "reference": "urn:uuid:guid_2",
        "identifier": {
          "system": "http://ohdsi.org/omop/fhir/cohort-identifier",
          "value": "1"
        }
      },
      "individual": {
        "reference": "urn:uuid:guid_11",
        "identifier": {
          "system": "http://ohdsi.org/omop/fhir/subject-identifier",
          "value": "5"
        }
      }
    },
    "request": {
      "method": "POST",
      "url": "ResearchSubject",
      "ifNoneExist": "ResearchSubject?patient.identifier=http://ohdsi.org/omop/fhir/subject-identifier|5&study.identifier=http://ohdsi.org/omop/fhir/cohort-identifier|1"
    }
  }, {
    "fullUrl": "urn:uuid:guid_13",
    "resource": {
      "resourceType": "Patient",
      "identifier": [ {
        "system": "http://ohdsi.org/omop/fhir/subject-identifier",
        "value": "6"
      } ],
      "gender": "female",
      "birthDate": "1905-02-01"
    },
    "request": {
      "method": "PUT",
      "url": "Patient?identifier=http://ohdsi.org/omop/fhir/subject-identifier|6"
    }
  }, {
    "fullUrl": "urn:uuid:guid_14",
    "resource": {
      "resourceType": "ResearchSubject",
      "status": "candidate",
      "study": {
        "reference": "urn:uuid:guid_2",
        "identifier": {
          "system": "http://ohdsi.org/omop/fhir/cohort-identifier",
          "value": "1"
        }
      },
      "individual": {
        "reference": "urn:uuid:guid_13",
        "identifier": {
          "system": "http://ohdsi.org/omop/fhir/subject-identifier",
          "value": "6"
        }
      }
    },
    "request": {
      "method": "POST",
      "url": "ResearchSubject",
      "ifNoneExist": "ResearchSubject?patient.identifier=http://ohdsi.org/omop/fhir/subject-identifier|6&study.identifier=http://ohdsi.org/omop/fhir/cohort-identifier|1"
    }
  }, {
    "fullUrl": "urn:uuid:guid_15",
    "resource": {
      "resourceType": "Patient",
      "identifier": [ {
        "system": "http://ohdsi.org/omop/fhir/subject-identifier",
        "value": "7"
      } ],
      "gender": "female",
      "birthDate": "1906-02-01"
    },
    "request": {
      "method": "PUT",
      "url": "Patient?identifier=http://ohdsi.org/omop/fhir/subject-identifier|7"
    }
  }, {
    "fullUrl": "urn:uuid:guid_16",
    "resource": {
      "resourceType": "ResearchSubject",
      "status": "candidate",
      "study": {
        "reference": "urn:uuid:guid_2",
        "identifier": {
          "system": "http://ohdsi.org/omop/fhir/cohort-identifier",
          "value": "1"
        }
      },
      "individual": {
        "reference": "urn:uuid:guid_15",
        "identifier": {
          "system": "http://ohdsi.org/omop/fhir/subject-identifier",
          "value": "7"
        }
      }
    },
    "request": {
      "method": "POST",
      "url": "ResearchSubject",
      "ifNoneExist": "ResearchSubject?patient.identifier=http://ohdsi.org/omop/fhir/subject-identifier|7&study.identifier=http://ohdsi.org/omop/fhir/cohort-identifier|1"
    }
  }, {
    "fullUrl": "urn:uuid:guid_17",
    "resource": {
      "resourceType": "Patient",
      "identifier": [ {
        "system": "http://ohdsi.org/omop/fhir/subject-identifier",
        "value": "8"
      } ],
      "gender": "female",
      "birthDate": "1907-02-01"
    },
    "request": {
      "method": "PUT",
      "url": "Patient?identifier=http://ohdsi.org/omop/fhir/subject-identifier|8"
    }
  }, {
    "fullUrl": "urn:uuid:guid_18",
    "resource": {
      "resourceType": "ResearchSubject",
      "status": "candidate",
      "study": {
        "reference": "urn:uuid:guid_2",
        "identifier": {
          "system": "http://ohdsi.org/omop/fhir/cohort-identifier",
          "value": "1"
        }
      },
      "individual": {
        "reference": "urn:uuid:guid_17",
        "identifier": {
          "system": "http://ohdsi.org/omop/fhir/subject-identifier",
          "value": "8"
        }
      }
    },
    "request": {
      "method": "POST",
      "url": "ResearchSubject",
      "ifNoneExist": "ResearchSubject?patient.identifier=http://ohdsi.org/omop/fhir/subject-identifier|8&study.identifier=http://ohdsi.org/omop/fhir/cohort-identifier|1"
    }
  }, {
    "fullUrl": "urn:uuid:guid_19",
    "resource": {
      "resourceType": "Patient",
      "identifier": [ {
        "system": "http://ohdsi.org/omop/fhir/subject-identifier",
        "value": "9"
      } ],
      "gender": "female",
      "birthDate": "1908-02-01"
    },
    "request": {
      "method": "PUT",
      "url": "Patient?identifier=http://ohdsi.org/omop/fhir/subject-identifier|9"
    }
  }, {
    "fullUrl": "urn:uuid:guid_20",
    "resource": {
      "resourceType": "ResearchSubject",
      "status": "candidate",
      "study": {
        "reference": "urn:uuid:guid_2",
        "identifier": {
          "system": "http://ohdsi.org/omop/fhir/cohort-identifier",
          "value": "1"
        }
      },
      "individual": {
        "reference": "urn:uuid:guid_19",
        "identifier": {
          "system": "http://ohdsi.org/omop/fhir/subject-identifier",
          "value": "9"
        }
      }
    },
    "request": {
      "method": "POST",
      "url": "ResearchSubject",
      "ifNoneExist": "ResearchSubject?patient.identifier=http://ohdsi.org/omop/fhir/subject-identifier|9&study.identifier=http://ohdsi.org/omop/fhir/cohort-identifier|1"
    }
  }, {
    "fullUrl": "urn:uuid:guid_21",
    "resource": {
      "resourceType": "Patient",
      "identifier": [ {
        "system": "http://ohdsi.org/omop/fhir/subject-identifier",
        "value": "10"
      } ],
      "gender": "female",
      "birthDate": "1909-02-01"
    },
    "request": {
      "method": "PUT",
      "url": "Patient?identifier=http://ohdsi.org/omop/fhir/subject-identifier|10"
    }
  }, {
    "fullUrl": "urn:uuid:guid_22",
    "resource": {
      "resourceType": "ResearchSubject",
      "status": "candidate",
      "study": {
        "reference": "urn:uuid:guid_2",
        "identifier": {
          "system": "http://ohdsi.org/omop/fhir/cohort-identifier",
          "value": "1"
        }
      },
      "individual": {
        "reference": "urn:uuid:guid_21",
        "identifier": {
          "system": "http://ohdsi.org/omop/fhir/subject-identifier",
          "value": "10"
        }
      }
    },
    "request": {
      "method": "POST",
      "url": "ResearchSubject",
      "ifNoneExist": "ResearchSubject?patient.identifier=http://ohdsi.org/omop/fhir/subject-identifier|10&study.identifier=http://ohdsi.org/omop/fhir/cohort-identifier|1"
    }
  }, {
    "fullUrl": "urn:uuid:guid_23",
    "resource": {
      "resourceType": "Patient",
      "identifier": [ {
        "system": "http://ohdsi.org/omop/fhir/subject-identifier",
        "value": "11"
      } ],
      "gender": "female",
      "birthDate": "1910-02-01"
    },
    "request": {
      "method": "PUT",
      "url": "Patient?identifier=http://ohdsi.org/omop/fhir/subject-identifier|11"
    }
  }, {
    "fullUrl": "urn:uuid:guid_24",
    "resource": {
      "resourceType": "ResearchSubject",
      "status": "candidate",
      "study": {
        "reference": "urn:uuid:guid_2",
        "identifier": {
          "system": "http://ohdsi.org/omop/fhir/cohort-identifier",
          "value": "1"
        }
      },
      "individual": {
        "reference": "urn:uuid:guid_23",
        "identifier": {
          "system": "http://ohdsi.org/omop/fhir/subject-identifier",
          "value": "11"
        }
      }
    },
    "request": {
      "method": "POST",
      "url": "ResearchSubject",
      "ifNoneExist": "ResearchSubject?patient.identifier=http://ohdsi.org/omop/fhir/subject-identifier|11&study.identifier=http://ohdsi.org/omop/fhir/cohort-identifier|1"
    }
  }, {
    "fullUrl": "urn:uuid:guid_25",
    "resource": {
      "resourceType": "Patient",
      "identifier": [ {
        "system": "http://ohdsi.org/omop/fhir/subject-identifier",
        "value": "12"
      } ],
      "gender": "female",
      "birthDate": "1911-02-01"
    },
    "request": {
      "method": "PUT",
      "url": "Patient?identifier=http://ohdsi.org/omop/fhir/subject-identifier|12"
    }
  }, {
    "fullUrl": "urn:uuid:guid_26",
    "resource": {
      "resourceType": "ResearchSubject",
      "status": "candidate",
      "study": {
        "reference": "urn:uuid:guid_2",
        "identifier": {
          "system": "http://ohdsi.org/omop/fhir/cohort-identifier",
          "value": "1"
        }
      },
      "individual": {
        "reference": "urn:uuid:guid_25",
        "identifier": {
          "system": "http://ohdsi.org/omop/fhir/subject-identifier",
          "value": "12"
        }
      }
    },
    "request": {
      "method": "POST",
      "url": "ResearchSubject",
      "ifNoneExist": "ResearchSubject?patient.identifier=http://ohdsi.org/omop/fhir/subject-identifier|12&study.identifier=http://ohdsi.org/omop/fhir/cohort-identifier|1"
    }
  }, {
    "fullUrl": "urn:uuid:guid_27",
    "resource": {
      "resourceType": "Patient",
      "identifier": [ {
        "system": "http://ohdsi.org/omop/fhir/subject-identifier",
        "value": "13"
      } ],
      "gender": "female",
      "birthDate": "1912-02-01"
    },
    "request": {
      "method": "PUT",
      "url": "Patient?identifier=http://ohdsi.org/omop/fhir/subject-identifier|13"
    }
  }, {
    "fullUrl": "urn:uuid:guid_28",
    "resource": {
      "resourceType": "ResearchSubject",
      "status": "candidate",
      "study": {
        "reference": "urn:uuid:guid_2",
        "identifier": {
          "system": "http://ohdsi.org/omop/fhir/cohort-identifier",
          "value": "1"
        }
      },
      "individual": {
        "reference": "urn:uuid:guid_27",
        "identifier": {
          "system": "http://ohdsi.org/omop/fhir/subject-identifier",
          "value": "13"
        }
      }
    },
    "request": {
      "method": "POST",
      "url": "ResearchSubject",
      "ifNoneExist": "ResearchSubject?patient.identifier=http://ohdsi.org/omop/fhir/subject-identifier|13&study.identifier=http://ohdsi.org/omop/fhir/cohort-identifier|1"
    }
  }, {
    "fullUrl": "urn:uuid:guid_29",
    "resource": {
      "resourceType": "Patient",
      "identifier": [ {
        "system": "http://ohdsi.org/omop/fhir/subject-identifier",
        "value": "14"
      } ],
      "gender": "female",
      "birthDate": "1913-02-01"
    },
    "request": {
      "method": "PUT",
      "url": "Patient?identifier=http://ohdsi.org/omop/fhir/subject-identifier|14"
    }
  }, {
    "fullUrl": "urn:uuid:guid_30",
    "resource": {
      "resourceType": "ResearchSubject",
      "status": "candidate",
      "study": {
        "reference": "urn:uuid:guid_2",
        "identifier": {
          "system": "http://ohdsi.org/omop/fhir/cohort-identifier",
          "value": "1"
        }
      },
      "individual": {
        "reference": "urn:uuid:guid_29",
        "identifier": {
          "system": "http://ohdsi.org/omop/fhir/subject-identifier",
          "value": "14"
        }
      }
    },
    "request": {
      "method": "POST",
      "url": "ResearchSubject",
      "ifNoneExist": "ResearchSubject?patient.identifier=http://ohdsi.org/omop/fhir/subject-identifier|14&study.identifier=http://ohdsi.org/omop/fhir/cohort-identifier|1"
    }
  }, {
    "fullUrl": "urn:uuid:guid_31",
    "resource": {
      "resourceType": "Patient",
      "identifier": [ {
        "system": "http://ohdsi.org/omop/fhir/subject-identifier",
        "value": "15"
      } ],
      "gender": "female",
      "birthDate": "1914-02-01"
    },
    "request": {
      "method": "PUT",
      "url": "Patient?identifier=http://ohdsi.org/omop/fhir/subject-identifier|15"
    }
  }, {
    "fullUrl": "urn:uuid:guid_32",
    "resource": {
      "resourceType": "ResearchSubject",
      "status": "candidate",
      "study": {
        "reference": "urn:uuid:guid_2",
        "identifier": {
          "system": "http://ohdsi.org/omop/fhir/cohort-identifier",
          "value": "1"
        }
      },
      "individual": {
        "reference": "urn:uuid:guid_31",
        "identifier": {
          "system": "http://ohdsi.org/omop/fhir/subject-identifier",
          "value": "15"
        }
      }
    },
    "request": {
      "method": "POST",
      "url": "ResearchSubject",
      "ifNoneExist": "ResearchSubject?patient.identifier=http://ohdsi.org/omop/fhir/subject-identifier|15&study.identifier=http://ohdsi.org/omop/fhir/cohort-identifier|1"
    }
  }, {
    "fullUrl": "urn:uuid:guid_33",
    "resource": {
      "resourceType": "Patient",
      "identifier": [ {
        "system": "http://ohdsi.org/omop/fhir/subject-identifier",
        "value": "16"
      } ],
      "gender": "female",
      "birthDate": "1915-02-01"
    },
    "request": {
      "method": "PUT",
      "url": "Patient?identifier=http://ohdsi.org/omop/fhir/subject-identifier|16"
    }
  }, {
    "fullUrl": "urn:uuid:guid_34",
    "resource": {
      "resourceType": "ResearchSubject",
      "status": "candidate",
      "study": {
        "reference": "urn:uuid:guid_2",
        "identifier": {
          "system": "http://ohdsi.org/omop/fhir/cohort-identifier",
          "value": "1"
        }
      },
      "individual": {
        "reference": "urn:uuid:guid_33",
        "identifier": {
          "system": "http://ohdsi.org/omop/fhir/subject-identifier",
          "value": "16"
        }
      }
    },
    "request": {
      "method": "POST",
      "url": "ResearchSubject",
      "ifNoneExist": "ResearchSubject?patient.identifier=http://ohdsi.org/omop/fhir/subject-identifier|16&study.identifier=http://ohdsi.org/omop/fhir/cohort-identifier|1"
    }
  }, {
    "fullUrl": "urn:uuid:guid_35",
    "resource": {
      "resourceType": "Patient",
      "identifier": [ {
        "system": "http://ohdsi.org/omop/fhir/subject-identifier",
        "value": "17"
      } ],
      "gender": "female",
      "birthDate": "1916-02-01"
    },
    "request": {
      "method": "PUT",
      "url": "Patient?identifier=http://ohdsi.org/omop/fhir/subject-identifier|17"
    }
  }, {
    "fullUrl": "urn:uuid:guid_36",
    "resource": {
      "resourceType": "ResearchSubject",
      "status": "candidate",
      "study": {
        "reference": "urn:uuid:guid_2",
        "identifier": {
          "system": "http://ohdsi.org/omop/fhir/cohort-identifier",
          "value": "1"
        }
      },
      "individual": {
        "reference": "urn:uuid:guid_35",
        "identifier": {
          "system": "http://ohdsi.org/omop/fhir/subject-identifier",
          "value": "17"
        }
      }
    },
    "request": {
      "method": "POST",
      "url": "ResearchSubject",
      "ifNoneExist": "ResearchSubject?patient.identifier=http://ohdsi.org/omop/fhir/subject-identifier|17&study.identifier=http://ohdsi.org/omop/fhir/cohort-identifier|1"
    }
  }, {
    "fullUrl": "urn:uuid:guid_37",
    "resource": {
      "resourceType": "Patient",
      "identifier": [ {
        "system": "http://ohdsi.org/omop/fhir/subject-identifier",
        "value": "18"
      } ],
      "gender": "female",
      "birthDate": "1917-02-01"
    },
    "request": {
      "method": "PUT",
      "url": "Patient?identifier=http://ohdsi.org/omop/fhir/subject-identifier|18"
    }
  }, {
    "fullUrl": "urn:uuid:guid_38",
    "resource": {
      "resourceType": "ResearchSubject",
      "status": "candidate",
      "study": {
        "reference": "urn:uuid:guid_2",
        "identifier": {
          "system": "http://ohdsi.org/omop/fhir/cohort-identifier",
          "value": "1"
        }
      },
      "individual": {
        "reference": "urn:uuid:guid_37",
        "identifier": {
          "system": "http://ohdsi.org/omop/fhir/subject-identifier",
          "value": "18"
        }
      }
    },
    "request": {
      "method": "POST",
      "url": "ResearchSubject",
      "ifNoneExist": "ResearchSubject?patient.identifier=http://ohdsi.org/omop/fhir/subject-identifier|18&study.identifier=http://ohdsi.org/omop/fhir/cohort-identifier|1"
    }
  }, {
    "fullUrl": "urn:uuid:guid_39",
    "resource": {
      "resourceType": "Patient",
      "identifier": [ {
        "system": "http://ohdsi.org/omop/fhir/subject-identifier",
        "value": "19"
      } ],
      "gender": "female",
      "birthDate": "1918-02-01"
    },
    "request": {
      "method": "PUT",
      "url": "Patient?identifier=http://ohdsi.org/omop/fhir/subject-identifier|19"
    }
  }, {
    "fullUrl": "urn:uuid:guid_40",
    "resource": {
      "resourceType": "ResearchSubject",
      "status": "candidate",
      "study": {
        "reference": "urn:uuid:guid_2",
        "identifier": {
          "system": "http://ohdsi.org/omop/fhir/cohort-identifier",
          "value": "1"
        }
      },
      "individual": {
        "reference": "urn:uuid:guid_39",
        "identifier": {
          "system": "http://ohdsi.org/omop/fhir/subject-identifier",
          "value": "19"
        }
      }
    },
    "request": {
      "method": "POST",
      "url": "ResearchSubject",
      "ifNoneExist": "ResearchSubject?patient.identifier=http://ohdsi.org/omop/fhir/subject-identifier|19&study.identifier=http://ohdsi.org/omop/fhir/cohort-identifier|1"
    }
  }, {
    "fullUrl": "urn:uuid:guid_41",
    "resource": {
      "resourceType": "Patient",
      "identifier": [ {
        "system": "http://ohdsi.org/omop/fhir/subject-identifier",
        "value": "20"
      } ],
      "gender": "female",
      "birthDate": "1919-02-01"
    },
    "request": {
      "method": "PUT",
      "url": "Patient?identifier=http://ohdsi.org/omop/fhir/subject-identifier|20"
    }
  }, {
    "fullUrl": "urn:uuid:guid_42",
    "resource": {
      "resourceType": "ResearchSubject",
      "status": "candidate",
      "study": {
        "reference": "urn:uuid:guid_2",
        "identifier": {
          "system": "http://ohdsi.org/omop/fhir/cohort-identifier",
          "value": "1"
        }
      },
      "individual": {
        "reference": "urn:uuid:guid_41",
        "identifier": {
          "system": "http://ohdsi.org/omop/fhir/subject-identifier",
          "value": "20"
        }
      }
    },
    "request": {
      "method": "POST",
      "url": "ResearchSubject",
      "ifNoneExist": "ResearchSubject?patient.identifier=http://ohdsi.org/omop/fhir/subject-identifier|20&study.identifier=http://ohdsi.org/omop/fhir/cohort-identifier|1"
    }
  }, {
    "fullUrl": "urn:uuid:guid_43",
    "resource": {
      "resourceType": "Patient",
      "identifier": [ {
        "system": "http://ohdsi.org/omop/fhir/subject-identifier",
        "value": "21"
      } ],
      "gender": "female",
      "birthDate": "1920-02-01"
    },
    "request": {
      "method": "PUT",
      "url": "Patient?identifier=http://ohdsi.org/omop/fhir/subject-identifier|21"
    }
  }, {
    "fullUrl": "urn:uuid:guid_44",
    "resource": {
      "resourceType": "ResearchSubject",
      "status": "candidate",
      "study": {
        "reference": "urn:uuid:guid_2",
        "identifier": {
          "system": "http://ohdsi.org/omop/fhir/cohort-identifier",
          "value": "1"
        }
      },
      "individual": {
        "reference": "urn:uuid:guid_43",
        "identifier": {
          "system": "http://ohdsi.org/omop/fhir/subject-identifier",
          "value": "21"
        }
      }
    },
    "request": {
      "method": "POST",
      "url": "ResearchSubject",
      "ifNoneExist": "ResearchSubject?patient.identifier=http://ohdsi.org/omop/fhir/subject-identifier|21&study.identifier=http://ohdsi.org/omop/fhir/cohort-identifier|1"
    }
  }, {
    "fullUrl": "urn:uuid:guid_45",
    "resource": {
      "resourceType": "Patient",
      "identifier": [ {
        "system": "http://ohdsi.org/omop/fhir/subject-identifier",
        "value": "22"
      } ],
      "gender": "female",
      "birthDate": "1921-02-01"
    },
    "request": {
      "method": "PUT",
      "url": "Patient?identifier=http://ohdsi.org/omop/fhir/subject-identifier|22"
    }
  }, {
    "fullUrl": "urn:uuid:guid_46",
    "resource": {
      "resourceType": "ResearchSubject",
      "status": "candidate",
      "study": {
        "reference": "urn:uuid:guid_2",
        "identifier": {
          "system": "http://ohdsi.org/omop/fhir/cohort-identifier",
          "value": "1"
        }
      },
      "individual": {
        "reference": "urn:uuid:guid_45",
        "identifier": {
          "system": "http://ohdsi.org/omop/fhir/subject-identifier",
          "value": "22"
        }
      }
    },
    "request": {
      "method": "POST",
      "url": "ResearchSubject",
      "ifNoneExist": "ResearchSubject?patient.identifier=http://ohdsi.org/omop/fhir/subject-identifier|22&study.identifier=http://ohdsi.org/omop/fhir/cohort-identifier|1"
    }
  }, {
    "fullUrl": "urn:uuid:guid_47",
    "resource": {
      "resourceType": "Patient",
      "identifier": [ {
        "system": "http://ohdsi.org/omop/fhir/subject-identifier",
        "value": "23"
      } ],
      "gender": "female",
      "birthDate": "1922-02-01"
    },
    "request": {
      "method": "PUT",
      "url": "Patient?identifier=http://ohdsi.org/omop/fhir/subject-identifier|23"
    }
  }, {
    "fullUrl": "urn:uuid:guid_48",
    "resource": {
      "resourceType": "ResearchSubject",
      "status": "candidate",
      "study": {
        "reference": "urn:uuid:guid_2",
        "identifier": {
          "system": "http://ohdsi.org/omop/fhir/cohort-identifier",
          "value": "1"
        }
      },
      "individual": {
        "reference": "urn:uuid:guid_47",
        "identifier": {
          "system": "http://ohdsi.org/omop/fhir/subject-identifier",
          "value": "23"
        }
      }
    },
    "request": {
      "method": "POST",
      "url": "ResearchSubject",
      "ifNoneExist": "ResearchSubject?patient.identifier=http://ohdsi.org/omop/fhir/subject-identifier|23&study.identifier=http://ohdsi.org/omop/fhir/cohort-identifier|1"
    }
  }, {
    "fullUrl": "urn:uuid:guid_49",
    "resource": {
      "resourceType": "Patient",
      "identifier": [ {
        "system": "http://ohdsi.org/omop/fhir/subject-identifier",
        "value": "24"
      } ],
      "gender": "female",
      "birthDate": "1923-02-01"
    },
    "request": {
      "method": "PUT",
      "url": "Patient?identifier=http://ohdsi.org/omop/fhir/subject-identifier|24"
    }
  }, {
    "fullUrl": "urn:uuid:guid_50",
    "resource": {
      "resourceType": "ResearchSubject",
      "status": "candidate",
      "study": {
        "reference": "urn:uuid:guid_2",
        "identifier": {
          "system": "http://ohdsi.org/omop/fhir/cohort-identifier",
          "value": "1"
        }
      },
      "individual": {
        "reference": "urn:uuid:guid_49",
        "identifier": {
          "system": "http://ohdsi.org/omop/fhir/subject-identifier",
          "value": "24"
        }
      }
    },
    "request": {
      "method": "POST",
      "url": "ResearchSubject",
      "ifNoneExist": "ResearchSubject?patient.identifier=http://ohdsi.org/omop/fhir/subject-identifier|24&study.identifier=http://ohdsi.org/omop/fhir/cohort-identifier|1"
    }
  }, {
    "fullUrl": "urn:uuid:guid_51",
    "resource": {
      "resourceType": "Patient",
      "identifier": [ {
        "system": "http://ohdsi.org/omop/fhir/subject-identifier",
        "value": "25"
      } ],
      "gender": "female",
      "birthDate": "1924-02-01"
    },
    "request": {
      "method": "PUT",
      "url": "Patient?identifier=http://ohdsi.org/omop/fhir/subject-identifier|25"
    }
  }, {
    "fullUrl": "urn:uuid:guid_52",
    "resource": {
      "resourceType": "ResearchSubject",
      "status": "candidate",
      "study": {
        "reference": "urn:uuid:guid_2",
        "identifier": {
          "system": "http://ohdsi.org/omop/fhir/cohort-identifier",
          "value": "1"
        }
      },
      "individual": {
        "reference": "urn:uuid:guid_51",
        "identifier": {
          "system": "http://ohdsi.org/omop/fhir/subject-identifier",
          "value": "25"
        }
      }
    },
    "request": {
      "method": "POST",
      "url": "ResearchSubject",
      "ifNoneExist": "ResearchSubject?patient.identifier=http://ohdsi.org/omop/fhir/subject-identifier|25&study.identifier=http://ohdsi.org/omop/fhir/cohort-identifier|1"
    }
  }, {
    "fullUrl": "urn:uuid:guid_53",
    "resource": {
      "resourceType": "Patient",
      "identifier": [ {
        "system": "http://ohdsi.org/omop/fhir/subject-identifier",
        "value": "26"
      } ],
      "gender": "female",
      "birthDate": "1925-02-01"
    },
    "request": {
      "method": "PUT",
      "url": "Patient?identifier=http://ohdsi.org/omop/fhir/subject-identifier|26"
    }
  }, {
    "fullUrl": "urn:uuid:guid_54",
    "resource": {
      "resourceType": "ResearchSubject",
      "status": "candidate",
      "study": {
        "reference": "urn:uuid:guid_2",
        "identifier": {
          "system": "http://ohdsi.org/omop/fhir/cohort-identifier",
          "value": "1"
        }
      },
      "individual": {
        "reference": "urn:uuid:guid_53",
        "identifier": {
          "system": "http://ohdsi.org/omop/fhir/subject-identifier",
          "value": "26"
        }
      }
    },
    "request": {
      "method": "POST",
      "url": "ResearchSubject",
      "ifNoneExist": "ResearchSubject?patient.identifier=http://ohdsi.org/omop/fhir/subject-identifier|26&study.identifier=http://ohdsi.org/omop/fhir/cohort-identifier|1"
    }
  }, {
    "fullUrl": "urn:uuid:guid_55",
    "resource": {
      "resourceType": "Patient",
      "identifier": [ {
        "system": "http://ohdsi.org/omop/fhir/subject-identifier",
        "value": "27"
      } ],
      "gender": "female",
      "birthDate": "1926-02-01"
    },
    "request": {
      "method": "PUT",
      "url": "Patient?identifier=http://ohdsi.org/omop/fhir/subject-identifier|27"
    }
  }, {
    "fullUrl": "urn:uuid:guid_56",
    "resource": {
      "resourceType": "ResearchSubject",
      "status": "candidate",
      "study": {
        "reference": "urn:uuid:guid_2",
        "identifier": {
          "system": "http://ohdsi.org/omop/fhir/cohort-identifier",
          "value": "1"
        }
      },
      "individual": {
        "reference": "urn:uuid:guid_55",
        "identifier": {
          "system": "http://ohdsi.org/omop/fhir/subject-identifier",
          "value": "27"
        }
      }
    },
    "request": {
      "method": "POST",
      "url": "ResearchSubject",
      "ifNoneExist": "ResearchSubject?patient.identifier=http://ohdsi.org/omop/fhir/subject-identifier|27&study.identifier=http://ohdsi.org/omop/fhir/cohort-identifier|1"
    }
  }, {
    "fullUrl": "urn:uuid:guid_57",
    "resource": {
      "resourceType": "Patient",
      "identifier": [ {
        "system": "http://ohdsi.org/omop/fhir/subject-identifier",
        "value": "28"
      } ],
      "gender": "female",
      "birthDate": "1927-02-01"
    },
    "request": {
      "method": "PUT",
      "url": "Patient?identifier=http://ohdsi.org/omop/fhir/subject-identifier|28"
    }
  }, {
    "fullUrl": "urn:uuid:guid_58",
    "resource": {
      "resourceType": "ResearchSubject",
      "status": "candidate",
      "study": {
        "reference": "urn:uuid:guid_2",
        "identifier": {
          "system": "http://ohdsi.org/omop/fhir/cohort-identifier",
          "value": "1"
        }
      },
      "individual": {
        "reference": "urn:uuid:guid_57",
        "identifier": {
          "system": "http://ohdsi.org/omop/fhir/subject-identifier",
          "value": "28"
        }
      }
    },
    "request": {
      "method": "POST",
      "url": "ResearchSubject",
      "ifNoneExist": "ResearchSubject?patient.identifier=http://ohdsi.org/omop/fhir/subject-identifier|28&study.identifier=http://ohdsi.org/omop/fhir/cohort-identifier|1"
    }
  }, {
    "fullUrl": "urn:uuid:guid_59",
    "resource": {
      "resourceType": "Patient",
      "identifier": [ {
        "system": "http://ohdsi.org/omop/fhir/subject-identifier",
        "value": "29"
      } ],
      "gender": "female",
      "birthDate": "1928-02-01"
    },
    "request": {
      "method": "PUT",
      "url": "Patient?identifier=http://ohdsi.org/omop/fhir/subject-identifier|29"
    }
  }, {
    "fullUrl": "urn:uuid:guid_60",
    "resource": {
      "resourceType": "ResearchSubject",
      "status": "candidate",
      "study": {
        "reference": "urn:uuid:guid_2",
        "identifier": {
          "system": "http://ohdsi.org/omop/fhir/cohort-identifier",
          "value": "1"
        }
      },
      "individual": {
        "reference": "urn:uuid:guid_59",
        "identifier": {
          "system": "http://ohdsi.org/omop/fhir/subject-identifier",
          "value": "29"
        }
      }
    },
    "request": {
      "method": "POST",
      "url": "ResearchSubject",
      "ifNoneExist": "ResearchSubject?patient.identifier=http://ohdsi.org/omop/fhir/subject-identifier|29&study.identifier=http://ohdsi.org/omop/fhir/cohort-identifier|1"
    }
  }, {
    "fullUrl": "urn:uuid:guid_61",
    "resource": {
      "resourceType": "Patient",
      "identifier": [ {
        "system": "http://ohdsi.org/omop/fhir/subject-identifier",
        "value": "30"
      } ],
      "gender": "female",
      "birthDate": "1929-02-01"
    },
    "request": {
      "method": "PUT",
      "url": "Patient?identifier=http://ohdsi.org/omop/fhir/subject-identifier|30"
    }
  }, {
    "fullUrl": "urn:uuid:guid_62",
    "resource": {
      "resourceType": "ResearchSubject",
      "status": "candidate",
      "study": {
        "reference": "urn:uuid:guid_2",
        "identifier": {
          "system": "http://ohdsi.org/omop/fhir/cohort-identifier",
          "value": "1"
        }
      },
      "individual": {
        "reference": "urn:uuid:guid_61",
        "identifier": {
          "system": "http://ohdsi.org/omop/fhir/subject-identifier",
          "value": "30"
        }
      }
    },
    "request": {
      "method": "POST",
      "url": "ResearchSubject",
      "ifNoneExist": "ResearchSubject?patient.identifier=http://ohdsi.org/omop/fhir/subject-identifier|30&study.identifier=http://ohdsi.org/omop/fhir/cohort-identifier|1"
    }
  }, {
    "fullUrl": "urn:uuid:guid_63",
    "resource": {
      "resourceType": "Patient",
      "identifier": [ {
        "system": "http://ohdsi.org/omop/fhir/subject-identifier",
        "value": "31"
      } ],
      "gender": "female",
      "birthDate": "1930-02-01"
    },
    "request": {
      "method": "PUT",
      "url": "Patient?identifier=http://ohdsi.org/omop/fhir/subject-identifier|31"
    }
  }, {
    "fullUrl": "urn:uuid:guid_64",
    "resource": {
      "resourceType": "ResearchSubject",
      "status": "candidate",
      "study": {
        "reference": "urn:uuid:guid_2",
        "identifier": {
          "system": "http://ohdsi.org/omop/fhir/cohort-identifier",
          "value": "1"
        }
      },
      "individual": {
        "reference": "urn:uuid:guid_63",
        "identifier": {
          "system": "http://ohdsi.org/omop/fhir/subject-identifier",
          "value": "31"
        }
      }
    },
    "request": {
      "method": "POST",
      "url": "ResearchSubject",
      "ifNoneExist": "ResearchSubject?patient.identifier=http://ohdsi.org/omop/fhir/subject-identifier|31&study.identifier=http://ohdsi.org/omop/fhir/cohort-identifier|1"
    }
  }, {
    "fullUrl": "urn:uuid:guid_65",
    "resource": {
      "resourceType": "Patient",
      "identifier": [ {
        "system": "http://ohdsi.org/omop/fhir/subject-identifier",
        "value": "32"
      } ],
      "gender": "female",
      "birthDate": "1931-02-01"
    },
    "request": {
      "method": "PUT",
      "url": "Patient?identifier=http://ohdsi.org/omop/fhir/subject-identifier|32"
    }
  }, {
    "fullUrl": "urn:uuid:guid_66",
    "resource": {
      "resourceType": "ResearchSubject",
      "status": "candidate",
      "study": {
        "reference": "urn:uuid:guid_2",
        "identifier": {
          "system": "http://ohdsi.org/omop/fhir/cohort-identifier",
          "value": "1"
        }
      },
      "individual": {
        "reference": "urn:uuid:guid_65",
        "identifier": {
          "system": "http://ohdsi.org/omop/fhir/subject-identifier",
          "value": "32"
        }
      }
    },
    "request": {
      "method": "POST",
      "url": "ResearchSubject",
      "ifNoneExist": "ResearchSubject?patient.identifier=http://ohdsi.org/omop/fhir/subject-identifier|32&study.identifier=http://ohdsi.org/omop/fhir/cohort-identifier|1"
    }
  }, {
    "fullUrl": "urn:uuid:guid_67",
    "resource": {
      "resourceType": "Patient",
      "identifier": [ {
        "system": "http://ohdsi.org/omop/fhir/subject-identifier",
        "value": "33"
      } ],
      "gender": "female",
      "birthDate": "1932-02-01"
    },
    "request": {
      "method": "PUT",
      "url": "Patient?identifier=http://ohdsi.org/omop/fhir/subject-identifier|33"
    }
  }, {
    "fullUrl": "urn:uuid:guid_68",
    "resource": {
      "resourceType": "ResearchSubject",
      "status": "candidate",
      "study": {
        "reference": "urn:uuid:guid_2",
        "identifier": {
          "system": "http://ohdsi.org/omop/fhir/cohort-identifier",
          "value": "1"
        }
      },
      "individual": {
        "reference": "urn:uuid:guid_67",
        "identifier": {
          "system": "http://ohdsi.org/omop/fhir/subject-identifier",
          "value": "33"
        }
      }
    },
    "request": {
      "method": "POST",
      "url": "ResearchSubject",
      "ifNoneExist": "ResearchSubject?patient.identifier=http://ohdsi.org/omop/fhir/subject-identifier|33&study.identifier=http://ohdsi.org/omop/fhir/cohort-identifier|1"
    }
  }, {
    "fullUrl": "urn:uuid:guid_69",
    "resource": {
      "resourceType": "Patient",
      "identifier": [ {
        "system": "http://ohdsi.org/omop/fhir/subject-identifier",
        "value": "34"
      } ],
      "gender": "female",
      "birthDate": "1933-02-01"
    },
    "request": {
      "method": "PUT",
      "url": "Patient?identifier=http://ohdsi.org/omop/fhir/subject-identifier|34"
    }
  }, {
    "fullUrl": "urn:uuid:guid_70",
    "resource": {
      "resourceType": "ResearchSubject",
      "status": "candidate",
      "study": {
        "reference": "urn:uuid:guid_2",
        "identifier": {
          "system": "http://ohdsi.org/omop/fhir/cohort-identifier",
          "value": "1"
        }
      },
      "individual": {
        "reference": "urn:uuid:guid_69",
        "identifier": {
          "system": "http://ohdsi.org/omop/fhir/subject-identifier",
          "value": "34"
        }
      }
    },
    "request": {
      "method": "POST",
      "url": "ResearchSubject",
      "ifNoneExist": "ResearchSubject?patient.identifier=http://ohdsi.org/omop/fhir/subject-identifier|34&study.identifier=http://ohdsi.org/omop/fhir/cohort-identifier|1"
    }
  }, {
    "fullUrl": "urn:uuid:guid_71",
    "resource": {
      "resourceType": "Patient",
      "identifier": [ {
        "system": "http://ohdsi.org/omop/fhir/subject-identifier",
        "value": "35"
      } ],
      "gender": "female",
      "birthDate": "1934-02-01"
    },
    "request": {
      "method": "PUT",
      "url": "Patient?identifier=http://ohdsi.org/omop/fhir/subject-identifier|35"
    }
  }, {
    "fullUrl": "urn:uuid:guid_72",
    "resource": {
      "resourceType": "ResearchSubject",
      "status": "candidate",
      "study": {
        "reference": "urn:uuid:guid_2",
        "identifier": {
          "system": "http://ohdsi.org/omop/fhir/cohort-identifier",
          "value": "1"
        }
      },
      "individual": {
        "reference": "urn:uuid:guid_71",
        "identifier": {
          "system": "http://ohdsi.org/omop/fhir/subject-identifier",
          "value": "35"
        }
      }
    },
    "request": {
      "method": "POST",
      "url": "ResearchSubject",
      "ifNoneExist": "ResearchSubject?patient.identifier=http://ohdsi.org/omop/fhir/subject-identifier|35&study.identifier=http://ohdsi.org/omop/fhir/cohort-identifier|1"
    }
  }, {
    "fullUrl": "urn:uuid:guid_73",
    "resource": {
      "resourceType": "Patient",
      "identifier": [ {
        "system": "http://ohdsi.org/omop/fhir/subject-identifier",
        "value": "36"
      } ],
      "gender": "female",
      "birthDate": "1935-02-01"
    },
    "request": {
      "method": "PUT",
      "url": "Patient?identifier=http://ohdsi.org/omop/fhir/subject-identifier|36"
    }
  }, {
    "fullUrl": "urn:uuid:guid_74",
    "resource": {
      "resourceType": "ResearchSubject",
      "status": "candidate",
      "study": {
        "reference": "urn:uuid:guid_2",
        "identifier": {
          "system": "http://ohdsi.org/omop/fhir/cohort-identifier",
          "value": "1"
        }
      },
      "individual": {
        "reference": "urn:uuid:guid_73",
        "identifier": {
          "system": "http://ohdsi.org/omop/fhir/subject-identifier",
          "value": "36"
        }
      }
    },
    "request": {
      "method": "POST",
      "url": "ResearchSubject",
      "ifNoneExist": "ResearchSubject?patient.identifier=http://ohdsi.org/omop/fhir/subject-identifier|36&study.identifier=http://ohdsi.org/omop/fhir/cohort-identifier|1"
    }
  }, {
    "fullUrl": "urn:uuid:guid_75",
    "resource": {
      "resourceType": "Patient",
      "identifier": [ {
        "system": "http://ohdsi.org/omop/fhir/subject-identifier",
        "value": "37"
      } ],
      "gender": "female",
      "birthDate": "1936-02-01"
    },
    "request": {
      "method": "PUT",
      "url": "Patient?identifier=http://ohdsi.org/omop/fhir/subject-identifier|37"
    }
  }, {
    "fullUrl": "urn:uuid:guid_76",
    "resource": {
      "resourceType": "ResearchSubject",
      "status": "candidate",
      "study": {
        "reference": "urn:uuid:guid_2",
        "identifier": {
          "system": "http://ohdsi.org/omop/fhir/cohort-identifier",
          "value": "1"
        }
      },
      "individual": {
        "reference": "urn:uuid:guid_75",
        "identifier": {
          "system": "http://ohdsi.org/omop/fhir/subject-identifier",
          "value": "37"
        }
      }
    },
    "request": {
      "method": "POST",
      "url": "ResearchSubject",
      "ifNoneExist": "ResearchSubject?patient.identifier=http://ohdsi.org/omop/fhir/subject-identifier|37&study.identifier=http://ohdsi.org/omop/fhir/cohort-identifier|1"
    }
  }, {
    "fullUrl": "urn:uuid:guid_77",
    "resource": {
      "resourceType": "Patient",
      "identifier": [ {
        "system": "http://ohdsi.org/omop/fhir/subject-identifier",
        "value": "38"
      } ],
      "gender": "female",
      "birthDate": "1937-02-01"
    },
    "request": {
      "method": "PUT",
      "url": "Patient?identifier=http://ohdsi.org/omop/fhir/subject-identifier|38"
    }
  }, {
    "fullUrl": "urn:uuid:guid_78",
    "resource": {
      "resourceType": "ResearchSubject",
      "status": "candidate",
      "study": {
        "reference": "urn:uuid:guid_2",
        "identifier": {
          "system": "http://ohdsi.org/omop/fhir/cohort-identifier",
          "value": "1"
        }
      },
      "individual": {
        "reference": "urn:uuid:guid_77",
        "identifier": {
          "system": "http://ohdsi.org/omop/fhir/subject-identifier",
          "value": "38"
        }
      }
    },
    "request": {
      "method": "POST",
      "url": "ResearchSubject",
      "ifNoneExist": "ResearchSubject?patient.identifier=http://ohdsi.org/omop/fhir/subject-identifier|38&study.identifier=http://ohdsi.org/omop/fhir/cohort-identifier|1"
    }
  }, {
    "fullUrl": "urn:uuid:guid_79",
    "resource": {
      "resourceType": "Patient",
      "identifier": [ {
        "system": "http://ohdsi.org/omop/fhir/subject-identifier",
        "value": "39"
      } ],
      "gender": "female",
      "birthDate": "1938-02-01"
    },
    "request": {
      "method": "PUT",
      "url": "Patient?identifier=http://ohdsi.org/omop/fhir/subject-identifier|39"
    }
  }, {
    "fullUrl": "urn:uuid:guid_80",
    "resource": {
      "resourceType": "ResearchSubject",
      "status": "candidate",
      "study": {
        "reference": "urn:uuid:guid_2",
        "identifier": {
          "system": "http://ohdsi.org/omop/fhir/cohort-identifier",
          "value": "1"
        }
      },
      "individual": {
        "reference": "urn:uuid:guid_79",
        "identifier": {
          "system": "http://ohdsi.org/omop/fhir/subject-identifier",
          "value": "39"
        }
      }
    },
    "request": {
      "method": "POST",
      "url": "ResearchSubject",
      "ifNoneExist": "ResearchSubject?patient.identifier=http://ohdsi.org/omop/fhir/subject-identifier|39&study.identifier=http://ohdsi.org/omop/fhir/cohort-identifier|1"
    }
  }, {
    "fullUrl": "urn:uuid:guid_81",
    "resource": {
      "resourceType": "Patient",
      "identifier": [ {
        "system": "http://ohdsi.org/omop/fhir/subject-identifier",
        "value": "40"
      } ],
      "gender": "female",
      "birthDate": "1939-02-01"
    },
    "request": {
      "method": "PUT",
      "url": "Patient?identifier=http://ohdsi.org/omop/fhir/subject-identifier|40"
    }
  }, {
    "fullUrl": "urn:uuid:guid_82",
    "resource": {
      "resourceType": "ResearchSubject",
      "status": "candidate",
      "study": {
        "reference": "urn:uuid:guid_2",
        "identifier": {
          "system": "http://ohdsi.org/omop/fhir/cohort-identifier",
          "value": "1"
        }
      },
      "individual": {
        "reference": "urn:uuid:guid_81",
        "identifier": {
          "system": "http://ohdsi.org/omop/fhir/subject-identifier",
          "value": "40"
        }
      }
    },
    "request": {
      "method": "POST",
      "url": "ResearchSubject",
      "ifNoneExist": "ResearchSubject?patient.identifier=http://ohdsi.org/omop/fhir/subject-identifier|40&study.identifier=http://ohdsi.org/omop/fhir/cohort-identifier|1"
    }
  }, {
    "fullUrl": "urn:uuid:guid_83",
    "resource": {
      "resourceType": "Patient",
      "identifier": [ {
        "system": "http://ohdsi.org/omop/fhir/subject-identifier",
        "value": "41"
      } ],
      "gender": "female",
      "birthDate": "1940-02-01"
    },
    "request": {
      "method": "PUT",
      "url": "Patient?identifier=http://ohdsi.org/omop/fhir/subject-identifier|41"
    }
  }, {
    "fullUrl": "urn:uuid:guid_84",
    "resource": {
      "resourceType": "ResearchSubject",
      "status": "candidate",
      "study": {
        "reference": "urn:uuid:guid_2",
        "identifier": {
          "system": "http://ohdsi.org/omop/fhir/cohort-identifier",
          "value": "1"
        }
      },
      "individual": {
        "reference": "urn:uuid:guid_83",
        "identifier": {
          "system": "http://ohdsi.org/omop/fhir/subject-identifier",
          "value": "41"
        }
      }
    },
    "request": {
      "method": "POST",
      "url": "ResearchSubject",
      "ifNoneExist": "ResearchSubject?patient.identifier=http://ohdsi.org/omop/fhir/subject-identifier|41&study.identifier=http://ohdsi.org/omop/fhir/cohort-identifier|1"
    }
  }, {
    "fullUrl": "urn:uuid:guid_85",
    "resource": {
      "resourceType": "Patient",
      "identifier": [ {
        "system": "http://ohdsi.org/omop/fhir/subject-identifier",
        "value": "42"
      } ],
      "gender": "female",
      "birthDate": "1941-02-01"
    },
    "request": {
      "method": "PUT",
      "url": "Patient?identifier=http://ohdsi.org/omop/fhir/subject-identifier|42"
    }
  }, {
    "fullUrl": "urn:uuid:guid_86",
    "resource": {
      "resourceType": "ResearchSubject",
      "status": "candidate",
      "study": {
        "reference": "urn:uuid:guid_2",
        "identifier": {
          "system": "http://ohdsi.org/omop/fhir/cohort-identifier",
          "value": "1"
        }
      },
      "individual": {
        "reference": "urn:uuid:guid_85",
        "identifier": {
          "system": "http://ohdsi.org/omop/fhir/subject-identifier",
          "value": "42"
        }
      }
    },
    "request": {
      "method": "POST",
      "url": "ResearchSubject",
      "ifNoneExist": "ResearchSubject?patient.identifier=http://ohdsi.org/omop/fhir/subject-identifier|42&study.identifier=http://ohdsi.org/omop/fhir/cohort-identifier|1"
    }
  }, {
    "fullUrl": "urn:uuid:guid_87",
    "resource": {
      "resourceType": "Patient",
      "identifier": [ {
        "system": "http://ohdsi.org/omop/fhir/subject-identifier",
        "value": "43"
      } ],
      "gender": "female",
      "birthDate": "1942-02-01"
    },
    "request": {
      "method": "PUT",
      "url": "Patient?identifier=http://ohdsi.org/omop/fhir/subject-identifier|43"
    }
  }, {
    "fullUrl": "urn:uuid:guid_88",
    "resource": {
      "resourceType": "ResearchSubject",
      "status": "candidate",
      "study": {
        "reference": "urn:uuid:guid_2",
        "identifier": {
          "system": "http://ohdsi.org/omop/fhir/cohort-identifier",
          "value": "1"
        }
      },
      "individual": {
        "reference": "urn:uuid:guid_87",
        "identifier": {
          "system": "http://ohdsi.org/omop/fhir/subject-identifier",
          "value": "43"
        }
      }
    },
    "request": {
      "method": "POST",
      "url": "ResearchSubject",
      "ifNoneExist": "ResearchSubject?patient.identifier=http://ohdsi.org/omop/fhir/subject-identifier|43&study.identifier=http://ohdsi.org/omop/fhir/cohort-identifier|1"
    }
  }, {
    "fullUrl": "urn:uuid:guid_89",
    "resource": {
      "resourceType": "Patient",
      "identifier": [ {
        "system": "http://ohdsi.org/omop/fhir/subject-identifier",
        "value": "44"
      } ],
      "gender": "female",
      "birthDate": "1943-02-01"
    },
    "request": {
      "method": "PUT",
      "url": "Patient?identifier=http://ohdsi.org/omop/fhir/subject-identifier|44"
    }
  }, {
    "fullUrl": "urn:uuid:guid_90",
    "resource": {
      "resourceType": "ResearchSubject",
      "status": "candidate",
      "study": {
        "reference": "urn:uuid:guid_2",
        "identifier": {
          "system": "http://ohdsi.org/omop/fhir/cohort-identifier",
          "value": "1"
        }
      },
      "individual": {
        "reference": "urn:uuid:guid_89",
        "identifier": {
          "system": "http://ohdsi.org/omop/fhir/subject-identifier",
          "value": "44"
        }
      }
    },
    "request": {
      "method": "POST",
      "url": "ResearchSubject",
      "ifNoneExist": "ResearchSubject?patient.identifier=http://ohdsi.org/omop/fhir/subject-identifier|44&study.identifier=http://ohdsi.org/omop/fhir/cohort-identifier|1"
    }
  }, {
    "fullUrl": "urn:uuid:guid_91",
    "resource": {
      "resourceType": "Patient",
      "identifier": [ {
        "system": "http://ohdsi.org/omop/fhir/subject-identifier",
        "value": "45"
      } ],
      "gender": "female",
      "birthDate": "1944-02-01"
    },
    "request": {
      "method": "PUT",
      "url": "Patient?identifier=http://ohdsi.org/omop/fhir/subject-identifier|45"
    }
  }, {
    "fullUrl": "urn:uuid:guid_92",
    "resource": {
      "resourceType": "ResearchSubject",
      "status": "candidate",
      "study": {
        "reference": "urn:uuid:guid_2",
        "identifier": {
          "system": "http://ohdsi.org/omop/fhir/cohort-identifier",
          "value": "1"
        }
      },
      "individual": {
        "reference": "urn:uuid:guid_91",
        "identifier": {
          "system": "http://ohdsi.org/omop/fhir/subject-identifier",
          "value": "45"
        }
      }
    },
    "request": {
      "method": "POST",
      "url": "ResearchSubject",
      "ifNoneExist": "ResearchSubject?patient.identifier=http://ohdsi.org/omop/fhir/subject-identifier|45&study.identifier=http://ohdsi.org/omop/fhir/cohort-identifier|1"
    }
  }, {
    "fullUrl": "urn:uuid:guid_93",
    "resource": {
      "resourceType": "Patient",
      "identifier": [ {
        "system": "http://ohdsi.org/omop/fhir/subject-identifier",
        "value": "46"
      } ],
      "gender": "female",
      "birthDate": "1945-02-01"
    },
    "request": {
      "method": "PUT",
      "url": "Patient?identifier=http://ohdsi.org/omop/fhir/subject-identifier|46"
    }
  }, {
    "fullUrl": "urn:uuid:guid_94",
    "resource": {
      "resourceType": "ResearchSubject",
      "status": "candidate",
      "study": {
        "reference": "urn:uuid:guid_2",
        "identifier": {
          "system": "http://ohdsi.org/omop/fhir/cohort-identifier",
          "value": "1"
        }
      },
      "individual": {
        "reference": "urn:uuid:guid_93",
        "identifier": {
          "system": "http://ohdsi.org/omop/fhir/subject-identifier",
          "value": "46"
        }
      }
    },
    "request": {
      "method": "POST",
      "url": "ResearchSubject",
      "ifNoneExist": "ResearchSubject?patient.identifier=http://ohdsi.org/omop/fhir/subject-identifier|46&study.identifier=http://ohdsi.org/omop/fhir/cohort-identifier|1"
    }
  }, {
    "fullUrl": "urn:uuid:guid_95",
    "resource": {
      "resourceType": "Patient",
      "identifier": [ {
        "system": "http://ohdsi.org/omop/fhir/subject-identifier",
        "value": "47"
      } ],
      "gender": "female",
      "birthDate": "1946-02-01"
    },
    "request": {
      "method": "PUT",
      "url": "Patient?identifier=http://ohdsi.org/omop/fhir/subject-identifier|47"
    }
  }, {
    "fullUrl": "urn:uuid:guid_96",
    "resource": {
      "resourceType": "ResearchSubject",
      "status": "candidate",
      "study": {
        "reference": "urn:uuid:guid_2",
        "identifier": {
          "system": "http://ohdsi.org/omop/fhir/cohort-identifier",
          "value": "1"
        }
      },
      "individual": {
        "reference": "urn:uuid:guid_95",
        "identifier": {
          "system": "http://ohdsi.org/omop/fhir/subject-identifier",
          "value": "47"
        }
      }
    },
    "request": {
      "method": "POST",
      "url": "ResearchSubject",
      "ifNoneExist": "ResearchSubject?patient.identifier=http://ohdsi.org/omop/fhir/subject-identifier|47&study.identifier=http://ohdsi.org/omop/fhir/cohort-identifier|1"
    }
  }, {
    "fullUrl": "urn:uuid:guid_97",
    "resource": {
      "resourceType": "Patient",
      "identifier": [ {
        "system": "http://ohdsi.org/omop/fhir/subject-identifier",
        "value": "48"
      } ],
      "gender": "female",
      "birthDate": "1947-02-01"
    },
    "request": {
      "method": "PUT",
      "url": "Patient?identifier=http://ohdsi.org/omop/fhir/subject-identifier|48"
    }
  }, {
    "fullUrl": "urn:uuid:guid_98",
    "resource": {
      "resourceType": "ResearchSubject",
      "status": "candidate",
      "study": {
        "reference": "urn:uuid:guid_2",
        "identifier": {
          "system": "http://ohdsi.org/omop/fhir/cohort-identifier",
          "value": "1"
        }
      },
      "individual": {
        "reference": "urn:uuid:guid_97",
        "identifier": {
          "system": "http://ohdsi.org/omop/fhir/subject-identifier",
          "value": "48"
        }
      }
    },
    "request": {
      "method": "POST",
      "url": "ResearchSubject",
      "ifNoneExist": "ResearchSubject?patient.identifier=http://ohdsi.org/omop/fhir/subject-identifier|48&study.identifier=http://ohdsi.org/omop/fhir/cohort-identifier|1"
    }
  }, {
    "fullUrl": "urn:uuid:guid_99",
    "resource": {
      "resourceType": "Patient",
      "identifier": [ {
        "system": "http://ohdsi.org/omop/fhir/subject-identifier",
        "value": "49"
      } ],
      "gender": "female",
      "birthDate": "1948-02-01"
    },
    "request": {
      "method": "PUT",
      "url": "Patient?identifier=http://ohdsi.org/omop/fhir/subject-identifier|49"
    }
  }, {
    "fullUrl": "urn:uuid:guid_100",
    "resource": {
      "resourceType": "ResearchSubject",
      "status": "candidate",
      "study": {
        "reference": "urn:uuid:guid_2",
        "identifier": {
          "system": "http://ohdsi.org/omop/fhir/cohort-identifier",
          "value": "1"
        }
      },
      "individual": {
        "reference": "urn:uuid:guid_99",
        "identifier": {
          "system": "http://ohdsi.org/omop/fhir/subject-identifier",
          "value": "49"
        }
      }
    },
    "request": {
      "method": "POST",
      "url": "ResearchSubject",
      "ifNoneExist": "ResearchSubject?patient.identifier=http://ohdsi.org/omop/fhir/subject-identifier|49&study.identifier=http://ohdsi.org/omop/fhir/cohort-identifier|1"
    }
  }, {
    "fullUrl": "urn:uuid:guid_101",
    "resource": {
      "resourceType": "Patient",
      "identifier": [ {
        "system": "http://ohdsi.org/omop/fhir/subject-identifier",
        "value": "50"
      } ],
      "gender": "female",
      "birthDate": "1949-02-01"
    },
    "request": {
      "method": "PUT",
      "url": "Patient?identifier=http://ohdsi.org/omop/fhir/subject-identifier|50"
    }
  }, {
    "fullUrl": "urn:uuid:guid_102",
    "resource": {
      "resourceType": "ResearchSubject",
      "status": "candidate",
      "study": {
        "reference": "urn:uuid:guid_2",
        "identifier": {
          "system": "http://ohdsi.org/omop/fhir/cohort-identifier",
          "value": "1"
        }
      },
      "individual": {
        "reference": "urn:uuid:guid_101",
        "identifier": {
          "system": "http://ohdsi.org/omop/fhir/subject-identifier",
          "value": "50"
        }
      }
    },
    "request": {
      "method": "POST",
      "url": "ResearchSubject",
      "ifNoneExist": "ResearchSubject?patient.identifier=http://ohdsi.org/omop/fhir/subject-identifier|50&study.identifier=http://ohdsi.org/omop/fhir/cohort-identifier|1"
    }
  }, {
    "fullUrl": "urn:uuid:guid_103",
    "resource": {
      "resourceType": "List",
      "extension": [ {
        "url": "https://fhir.miracum.org/uc1/StructureDefinition/belongsToStudy",
        "valueReference": {
          "reference": "urn:uuid:guid_2",
          "display": "Testcohort"
        }
      } ],
      "identifier": [ {
        "system": "https://fhir.miracum.org/uc1/NamingSystem/screeningListId",
        "value": "screeninglist-1"
      } ],
      "status": "current",
      "mode": "working",
      "title": "Screening list for the 'Testcohort' study",
      "code": {
        "coding": [ {
          "system": "https://fhir.miracum.org/uc1/CodeSystem/screeningList",
          "code": "screening-recommendations"
        } ]
      },
      "source": {
        "reference": "urn:uuid:guid_1",
        "display": "recruIT query module null"
      },
      "orderedBy": {
        "coding": [ {
          "system": "http://terminology.hl7.org/CodeSystem/list-order",
          "code": "system",
          "display": "Sorted by System"
        } ]
      },
      "entry": [ {
        "date": "2000-01-01T11:11:11Z",
        "item": {
          "reference": "urn:uuid:guid_4"
        }
      }, {
        "date": "2000-01-01T11:11:11Z",
        "item": {
          "reference": "urn:uuid:guid_6"
        }
      }, {
        "date": "2000-01-01T11:11:11Z",
        "item": {
          "reference": "urn:uuid:guid_8"
        }
      }, {
        "date": "2000-01-01T11:11:11Z",
        "item": {
          "reference": "urn:uuid:guid_10"
        }
      }, {
        "date": "2000-01-01T11:11:11Z",
        "item": {
          "reference": "urn:uuid:guid_12"
        }
      }, {
        "date": "2000-01-01T11:11:11Z",
        "item": {
          "reference": "urn:uuid:guid_14"
        }
      }, {
        "date": "2000-01-01T11:11:11Z",
        "item": {
          "reference": "urn:uuid:guid_16"
        }
      }, {
        "date": "2000-01-01T11:11:11Z",
        "item": {
          "reference": "urn:uuid:guid_18"
        }
      }, {
        "date": "2000-01-01T11:11:11Z",
        "item": {
          "reference": "urn:uuid:guid_20"
        }
      }, {
        "date": "2000-01-01T11:11:11Z",
        "item": {
          "reference": "urn:uuid:guid_22"
        }
      }, {
        "date": "2000-01-01T11:11:11Z",
        "item": {
          "reference": "urn:uuid:guid_24"
        }
      }, {
        "date": "2000-01-01T11:11:11Z",
        "item": {
          "reference": "urn:uuid:guid_26"
        }
      }, {
        "date": "2000-01-01T11:11:11Z",
        "item": {
          "reference": "urn:uuid:guid_28"
        }
      }, {
        "date": "2000-01-01T11:11:11Z",
        "item": {
          "reference": "urn:uuid:guid_30"
        }
      }, {
        "date": "2000-01-01T11:11:11Z",
        "item": {
          "reference": "urn:uuid:guid_32"
        }
      }, {
        "date": "2000-01-01T11:11:11Z",
        "item": {
          "reference": "urn:uuid:guid_34"
        }
      }, {
        "date": "2000-01-01T11:11:11Z",
        "item": {
          "reference": "urn:uuid:guid_36"
        }
      }, {
        "date": "2000-01-01T11:11:11Z",
        "item": {
          "reference": "urn:uuid:guid_38"
        }
      }, {
        "date": "2000-01-01T11:11:11Z",
        "item": {
          "reference": "urn:uuid:guid_40"
        }
      }, {
        "date": "2000-01-01T11:11:11Z",
        "item": {
          "reference": "urn:uuid:guid_42"
        }
      }, {
        "date": "2000-01-01T11:11:11Z",
        "item": {
          "reference": "urn:uuid:guid_44"
        }
      }, {
        "date": "2000-01-01T11:11:11Z",
        "item": {
          "reference": "urn:uuid:guid_46"
        }
      }, {
        "date": "2000-01-01T11:11:11Z",
        "item": {
          "reference": "urn:uuid:guid_48"
        }
      }, {
        "date": "2000-01-01T11:11:11Z",
        "item": {
          "reference": "urn:uuid:guid_50"
        }
      }, {
        "date": "2000-01-01T11:11:11Z",
        "item": {
          "reference": "urn:uuid:guid_52"
        }
      }, {
        "date": "2000-01-01T11:11:11Z",
        "item": {
          "reference": "urn:uuid:guid_54"
        }
      }, {
        "date": "2000-01-01T11:11:11Z",
        "item": {
          "reference": "urn:uuid:guid_56"
        }
      }, {
        "date": "2000-01-01T11:11:11Z",
        "item": {
          "reference": "urn:uuid:guid_58"
        }
      }, {
        "date": "2000-01-01T11:11:11Z",
        "item": {
          "reference": "urn:uuid:guid_60"
        }
      }, {
        "date": "2000-01-01T11:11:11Z",
        "item": {
          "reference": "urn:uuid:guid_62"
        }
      }, {
        "date": "2000-01-01T11:11:11Z",
        "item": {
          "reference": "urn:uuid:guid_64"
        }
      }, {
        "date": "2000-01-01T11:11:11Z",
        "item": {
          "reference": "urn:uuid:guid_66"
        }
      }, {
        "date": "2000-01-01T11:11:11Z",
        "item": {
          "reference": "urn:uuid:guid_68"
        }
      }, {
        "date": "2000-01-01T11:11:11Z",
        "item": {
          "reference": "urn:uuid:guid_70"
        }
      }, {
        "date": "2000-01-01T11:11:11Z",
        "item": {
          "reference": "urn:uuid:guid_72"
        }
      }, {
        "date": "2000-01-01T11:11:11Z",
        "item": {
          "reference": "urn:uuid:guid_74"
        }
      }, {
        "date": "2000-01-01T11:11:11Z",
        "item": {
          "reference": "urn:uuid:guid_76"
        }
      }, {
        "date": "2000-01-01T11:11:11Z",
        "item": {
          "reference": "urn:uuid:guid_78"
        }
      }, {
        "date": "2000-01-01T11:11:11Z",
        "item": {
          "reference": "urn:uuid:guid_80"
        }
      }, {
        "date": "2000-01-01T11:11:11Z",
        "item": {
          "reference": "urn:uuid:guid_82"
        }
      }, {
        "date": "2000-01-01T11:11:11Z",
        "item": {
          "reference": "urn:uuid:guid_84"
        }
      }, {
        "date": "2000-01-01T11:11:11Z",
        "item": {
          "reference": "urn:uuid:guid_86"
        }
      }, {
        "date": "2000-01-01T11:11:11Z",
        "item": {
          "reference": "urn:uuid:guid_88"
        }
      }, {
        "date": "2000-01-01T11:11:11Z",
        "item": {
          "reference": "urn:uuid:guid_90"
        }
      }, {
        "date": "2000-01-01T11:11:11Z",
        "item": {
          "reference": "urn:uuid:guid_92"
        }
      }, {
        "date": "2000-01-01T11:11:11Z",
        "item": {
          "reference": "urn:uuid:guid_94"
        }
      }, {
        "date": "2000-01-01T11:11:11Z",
        "item": {
          "reference": "urn:uuid:guid_96"
        }
      }, {
        "date": "2000-01-01T11:11:11Z",
        "item": {
          "reference": "urn:uuid:guid_98"
        }
      }, {
        "date": "2000-01-01T11:11:11Z",
        "item": {
          "reference": "urn:uuid:guid_100"
        }
      }, {
        "date": "2000-01-01T11:11:11Z",
        "item": {
          "reference": "urn:uuid:guid_102"
        }
      } ]
    },
    "request": {
      "method": "PUT",
      "url": "List?identifier=https://fhir.miracum.org/uc1/NamingSystem/screeningListId|screeninglist-1"
    }
  } ]
}
